Folder: Deep-learning-directory/APL745/First lab

Note: README.md
# Deep-learning-directory
All about Deep learning

File: beam_data_1.csv
Elastic_Modulus (GPa),Load (kN),Length_of_Beam (m),X-sectional Width b (mm),X-sectional Height h (mm),Max Deflection (mm)
151,2,11,58,95,88.62827
125,5,11,49,87,412.5
147,1,11,52,104,38.6988
142,2,14,61,87,240.535
110,1,14,35,103,163.0616
160,2,12,48,103,102.953
138,1,7,34,80,35.6949
134,4,10,38,105,169.646
127,3,6,40,92,40.9532
165,1,11,33,81,114.991
125,2,14,35,95,365.7676
182,2,9,31,90,88.6211
200,4,15,57,110,222.429
114,3,10,54,95,142.099
183,3,7,34,85,67.32379
178,2,11,54,88,101.598
117,5,11,48,90,406.381
101,4,14,63,83,754.2024
194,5,7,39,92,72.77368
104,4,11,44,85,473.626
181,4,13,56,99,223.387
191,4,15,62,92,366.003
157,4,5,49,99,16.7459
186,1,13,46,85,104.53
165,2,9,34,87,98.66813
127,2,14,44,82,445.304
117,2,8,50,92,56.198
106,5,13,41,110,474.758
179,5,6,54,109,21.56937
200,2,11,68,95,57.074
155,4,10,58,102,104.819
120,2,5,56,101,9.027066
118,2,12,55,99,137.203
183,4,10,31,93,219.148
125,2,12,44,88,230.517
181,1,8,39,94,21.8315
114,2,5,40,96,15.4918
141,3,12,31,106,248.947
142,1,13,30,87,195.796
156,3,11,59,106,91.06367
145,5,5,37,83,50.93496
137,5,11,50,105,209.812
124,5,13,32,89,981.7442
127,2,5,59,102,7.860022
107,5,9,36,109,182.6719
193,3,7,32,85,67.82524
100,4,8,44,107,94.98738
129,1,15,63,93,129.073
117,2,15,41,89,499.004
140,5,12,48,109,248.202
142,5,7,68,93,55.20241
200,4,7,49,90,48.01097
145,3,14,44,101,313.0838
120,4,14,32,103,653.945
143,4,8,39,101,89.1056
200,2,13,43,108,101.398
139,4,6,37,87,63.77926
192,1,13,41,82,126.545
123,2,9,65,107,37.21583
173,5,12,64,90,267.609
169,4,5,41,81,33.9457
191,2,5,49,88,9.799469
106,3,12,63,82,351.979
176,5,6,63,99,25.096
159,3,12,43,81,356.685
163,3,15,69,93,279.801
171,5,14,35,107,467.8199
188,3,8,69,84,49.9444
144,2,6,36,91,27.6461
104,1,14,66,85,162.738
120,2,14,53,107,176.094
148,4,5,63,88,19.6725
196,3,15,66,109,151.097
171,1,7,51,110,7.38737
169,1,8,66,103,10.5019
128,4,14,34,93,783.8742
108,2,8,52,100,45.584
101,4,8,61,106,69.77521
131,1,11,44,110,43.3727
124,1,13,47,93,117.166
145,4,8,59,101,58.0879
167,5,14,46,107,364.476
190,2,8,33,84,68.8866
107,5,15,48,110,617.136
148,5,9,33,92,239.6064
135,5,6,69,101,28.133
138,4,7,30,84,139.7835
136,3,5,50,87,20.9365
132,3,9,46,100,90.0445
122,3,14,45,87,569.266
112,5,7,38,83,176.185
173,5,10,37,95,227.767
179,3,7,66,93,27.0713
163,2,6,40,94,19.9431
101,3,8,32,91,157.665
195,3,5,59,107,6.65171
154,2,6,53,84,22.32489
194,5,7,43,98,54.6079
167,1,5,30,107,5.09168
185,5,9,66,83,130.523
123,1,6,70,88,9.20328
173,4,13,66,100,192.415
129,2,5,36,81,25.324
103,1,9,39,80,88.6127
150,1,5,52,104,3.56168
140,3,5,30,88,32.7547
116,4,13,52,87,553.1093
194,1,7,40,92,14.1909
106,4,7,68,88,69.82828
117,4,10,36,100,237.4169
110,3,8,49,94,85.77464
128,3,12,58,104,155.191
135,3,8,41,86,109.073
196,4,15,30,99,591.549
182,5,5,45,84,32.1883
108,1,14,53,82,217.362
113,5,8,36,84,265.437
144,3,13,40,108,227.09
150,5,7,44,80,126.879
126,3,5,69,104,9.586313
200,4,8,67,107,31.18989
154,4,5,53,106,12.8587
197,3,5,41,106,9.745487
113,3,9,38,98,135.285
121,5,6,58,98,40.8764
111,5,6,60,97,44.4196
183,2,12,67,94,84.8407
195,2,15,46,96,212.636
118,4,13,36,103,473.297
153,5,8,30,104,123.956
138,1,14,53,83,164.034
170,3,7,66,107,18.7159
192,3,10,51,100,76.59314
199,3,13,45,91,244.175
102,2,12,50,107,138.29
172,1,15,70,95,81.73659
182,3,6,60,103,13.5763
186,4,12,34,101,265.2087
155,4,14,64,85,450.4179
109,3,14,64,105,254.842
153,3,15,33,84,845.847
137,4,10,60,98,129.256
171,5,8,52,108,57.1359
192,3,6,39,93,26.8968
117,2,15,41,99,362.55
187,5,9,35,99,143.49
200,1,7,46,106,7.8258
133,2,7,59,95,25.4912
189,4,11,31,108,180.336
120,5,11,70,104,176.079
125,2,9,30,80,189.844
169,3,11,52,87,172.501
178,4,12,66,88,215.84
154,2,10,49,95,77.2827
112,4,10,48,103,170.227
115,3,8,61,93,68.05416
163,1,11,61,98,35.5568
154,5,8,56,97,81.31226
175,1,6,44,96,7.926644
181,3,9,38,88,116.648
132,3,8,44,84,111.549
179,4,6,59,93,25.4273
111,2,9,56,86,92.19157
171,1,12,34,103,67.99814
191,2,10,41,96,72.16707
154,5,11,50,102,203.609
129,3,14,51,92,401.719
140,1,8,48,98,20.23776
169,4,7,70,92,37.23453
120,3,8,60,81,100.356
180,4,8,59,105,41.6464
118,4,6,53,97,37.8426
151,4,12,31,80,720.9998
161,4,8,55,94,69.6142
122,1,15,55,83,219.916
183,4,12,63,100,149.8829
157,2,14,32,91,362.3934
101,3,14,36,84,954.9566
193,4,6,55,93,25.2979
148,4,12,58,81,378.7904
125,4,5,62,103,14.7603
144,4,5,34,99,26.3126
176,4,10,57,85,162.314
161,5,10,35,103,203.004
137,5,15,34,84,1528.08
108,3,9,61,94,99.91982
138,2,12,32,82,354.849
125,4,5,53,89,26.76419
145,2,9,57,97,48.3214
163,4,13,47,106,240.784
184,5,8,61,104,50.69117
180,3,5,55,91,12.56643
165,1,12,34,92,98.89114
190,5,11,37,80,462.235
194,1,13,43,85,107.212
100,2,6,61,91,23.4947
135,4,6,43,86,58.5
134,4,8,66,106,48.60754
182,3,11,65,97,92.45691
137,2,7,45,107,22.70804
103,4,14,53,95,586.2734
174,3,6,54,94,20.75814
106,2,11,44,99,147.056
139,3,6,59,90,27.097
123,4,9,33,89,254.764
131,4,9,37,106,126.281
165,5,13,62,92,344.747
180,3,14,31,87,560.084
165,2,6,31,96,23.8652
195,2,5,48,110,5.01679
152,1,12,33,92,110.602
193,3,6,49,90,23.49817
106,2,9,38,95,105.545
118,1,11,44,94,77.16135
166,4,5,63,96,13.5098
182,3,15,46,107,246.805
148,2,11,39,81,216.953
170,1,9,68,85,25.6716
169,1,14,63,106,54.09776
192,4,8,57,88,68.65084
198,1,7,37,98,12.4362
184,4,15,66,87,422.0406
200,1,12,69,81,58.90465
156,4,14,63,82,506.381
165,3,6,48,81,38.4888
182,4,6,56,81,39.8785
171,3,14,51,97,258.5615
115,1,15,45,90,223.6536
125,3,11,61,95,152.696
138,2,10,49,95,86.24303
112,2,6,51,90,25.9363
122,4,7,39,84,121.6275
108,4,5,56,109,15.95948
168,2,7,31,88,48.322
186,3,10,36,110,84.15265
193,1,10,57,91,30.1567
136,3,10,55,106,84.1864
158,4,13,53,101,254.644
141,3,8,42,95,75.62963
101,1,5,62,90,6.84557
196,4,13,32,98,372.1738
130,5,13,30,109,543.746
147,4,11,55,100,164.626
110,5,14,66,108,375.0475
160,4,6,60,88,33.0168
175,2,5,58,87,9.350959
100,1,15,58,101,141.196
131,1,9,30,86,72.9087
166,3,15,43,102,334.1627
164,2,14,62,98,143.364
164,2,11,57,97,78.00351
150,5,5,63,99,17.0405
157,5,15,39,80,1345.7
179,5,7,70,105,29.5587
196,2,13,38,107,120.395
180,3,10,50,83,145.742
125,4,14,57,97,421.9724
102,5,7,52,85,131.627
180,2,6,38,92,20.277
163,3,11,58,80,206.231
127,1,6,65,95,7.62967
109,5,13,33,85,1243.21
157,4,12,46,90,328.2152
130,2,15,37,101,340.514
130,5,7,36,88,134.434
132,5,8,43,105,97.40241
189,3,12,50,82,248.732
132,1,15,51,92,160.956
124,1,5,63,88,5.870023
154,2,8,67,87,37.6779
187,2,10,58,81,86.74518
174,5,7,46,84,90.37727
157,5,13,70,101,242.537
190,2,15,70,104,112.796
150,3,9,40,85,148.382
133,3,15,53,97,393.4525
146,2,5,66,83,11.3435
124,5,10,31,101,315.619
147,1,9,66,102,17.7013
180,4,6,50,93,29.8375
136,3,11,33,104,197.736
100,1,5,42,87,11.2991
175,5,10,52,94,165.3808
157,5,10,57,83,244.287
126,2,8,48,101,41.08318
174,4,10,33,95,203.126
194,4,13,37,98,325.198
183,4,12,55,105,148.307
172,1,11,48,80,78.71879
142,3,7,69,92,33.71743
122,2,6,69,91,17.0251
185,1,5,43,92,5.044828
151,3,9,46,84,132.806
175,2,15,46,98,222.725
132,5,15,45,90,974.249
176,5,11,68,86,218.56